// Start Time: Unknown
// Update Rate: Various
// Filter Profile: General (1.17)
// Option Flags: AHS Enabled ICC Enabled 
// GNSS Platform: Portable
// Firmware Version: 1.4.12
PacketCounter	UTC_Nano	UTC_Year	UTC_Month	UTC_Day	UTC_Hour	UTC_Minute	UTC_Second	UTC_Valid	Acc_X	Acc_Y	Acc_Z	Gyr_X	Gyr_Y	Gyr_Z	Mag_X	Mag_Y	Mag_Z	Roll	Pitch	Yaw
48637									0.184488	-0.047381	9.830111	-0.002313	0.002548	-0.003579	-0.029939	0.389213	1.045701			
48638									0.170348	-0.054598	9.813328	0.001548	0.000979	-0.003903	-0.032916	0.390002	1.059056			
48639									0.175070	-0.061715	9.827694	-0.000028	-0.000962	-0.004548	-0.027617	0.391545	1.047845			
48640									0.191951	-0.068754	9.810964	0.000581	0.000974	-0.002300	-0.025941	0.384968	1.057726			
48641									0.187161	-0.068783	9.813349	0.003126	0.001640	-0.000696	-0.029797	0.393867	1.045706			
48642									0.196559	-0.049688	9.813374	-0.000057	0.001288	-0.003583	-0.028121	0.387289	1.055588			
48643									0.189315	-0.054494	9.830115	-0.002282	0.000622	-0.005507	-0.027849	0.386991	1.049776			
48644									0.182134	-0.040251	9.818142	0.005063	0.001654	-0.004224	-0.028444	0.382834	1.059456			
48645									0.194087	-0.052086	9.827731	-0.000024	-0.002241	-0.001988	-0.032553	0.389605	1.051307			
48646									0.177525	-0.056937	9.813339	0.002499	0.001951	-0.004222	-0.030372	0.387284	1.053446			
48647									0.177439	-0.061702	9.830092	0.002479	0.002914	-0.002617	-0.027668	0.386793	1.045902			
48648									0.201374	-0.071086	9.830127	-0.002625	0.002865	-0.006143	-0.028232	0.389814	1.059465			
48649									0.191669	-0.061624	9.842083	-0.000358	0.001278	-0.008071	-0.027526	0.391446	1.045908			
48650									0.182225	-0.049770	9.815744	-0.000975	-0.002252	-0.003911	-0.028303	0.387488	1.059462			
48651									0.170171	-0.047463	9.830087	0.001891	-0.001584	-0.002627	-0.020914	0.386808	1.052327			
48652									0.179824	-0.056927	9.825311	0.003479	0.000035	-0.003906	-0.035439	0.390295	1.062726			
48653									0.194322	-0.078265	9.822931	0.001239	-0.000305	-0.003265	-0.027738	0.384466	1.045899			
48654									0.186930	-0.056888	9.832503	0.000925	-0.000310	-0.004548	-0.028050	0.389616	1.055590			
48655									0.182190	-0.049772	9.820531	0.001534	0.001303	-0.001659	-0.030171	0.384659	1.047632			
48656									0.198983	-0.056815	9.815768	-0.000035	-0.000317	-0.004228	-0.019025	0.387211	1.062217			
48657									0.194391	-0.075881	9.810964	0.001258	-0.001588	-0.003909	-0.041709	0.396962	1.050498			
48658									0.179863	-0.071210	9.834878	0.000268	0.000327	-0.002622	-0.026011	0.382641	1.057723			
48659									0.184649	-0.059278	9.820531	0.001580	-0.000627	-0.006793	-0.030030	0.389313	1.047638			
48660									0.191755	-0.059240	9.827723	0.000250	0.001932	-0.002619	-0.032573	0.392031	1.053247			
48661									0.203776	-0.068691	9.825345	-0.000016	-0.002241	-0.003911	-0.037036	0.387169	1.045085			
48662									0.189477	-0.068772	9.822927	0.000584	0.000652	-0.002301	-0.028263	0.382636	1.055582			
48663									0.191700	-0.052100	9.827727	0.003140	0.001637	-0.003903	-0.030403	0.380105	1.049563			
48664									0.187089	-0.064024	9.818139	0.001574	-0.001265	-0.003909	-0.030554	0.387482	1.057320			
48665									0.179969	-0.073587	9.822909	0.002491	0.001632	-0.001978	-0.023165	0.386803	1.050185			
48666									0.170244	-0.056983	9.830082	0.001205	0.003220	-0.004860	-0.028413	0.390013	1.063339			
48667									0.182264	-0.061673	9.822919	0.000884	0.002579	-0.002938	-0.034714	0.389501	1.047229			
48668									0.172502	-0.037929	9.827702	0.003488	-0.001248	-0.002627	-0.021206	0.389532	1.060078			
48669									0.201299	-0.056804	9.825347	0.001556	0.000660	-0.004867	-0.022822	0.388832	1.044377			
48670									0.177473	-0.056939	9.820520	0.002194	0.000984	-0.005186	-0.032553	0.389605	1.051307			
48671									0.177546	-0.066459	9.820515	0.000586	0.001611	-0.005184	-0.027798	0.391744	1.051719			
48672									0.172684	-0.059348	9.825298	0.002823	0.001311	-0.003903	-0.030897	0.385454	1.063129			
48673									0.170298	-0.061743	9.827686	0.001542	0.001299	-0.003582	-0.027597	0.389119	1.045905			
48674									0.191699	-0.047338	9.822942	0.002194	-0.000295	-0.001984	-0.023760	0.382646	1.059865			
48675									0.206111	-0.071060	9.834922	0.001867	0.000984	-0.003905	-0.027668	0.386793	1.045902			
48676									0.184524	-0.049761	9.827716	-0.000706	0.002241	-0.004221	-0.028333	0.380309	1.055579			
48677									0.191754	-0.054478	9.822938	0.002526	-0.000294	-0.004549	-0.023094	0.389130	1.050188			
48678									0.179767	-0.042645	9.818137	0.001228	0.000657	-0.002943	-0.025839	0.394473	1.061612			
48679									0.172700	-0.056967	9.820512	0.002494	0.001631	-0.002620	-0.034734	0.391927	1.049169			
48680									0.182192	-0.056914	9.827708	0.000909	0.000013	-0.001982	-0.032321	0.394160	1.049376			
48681									0.189441	-0.066393	9.825322	0.001854	0.001626	-0.002620	-0.032442	0.387080	1.047430			
48682									0.184595	-0.054519	9.822926	0.003169	-0.001250	-0.002948	-0.023508	0.384774	1.055994			
48683									0.179878	-0.061686	9.822915	0.001267	-0.003512	-0.001349	-0.027708	0.391645	1.049782			
48684									0.191954	-0.078277	9.820533	-0.000681	0.000317	-0.004866	-0.030715	0.385255	1.059255			
48685									0.187089	-0.064024	9.818139	0.000263	0.001289	-0.003582	-0.027688	0.389219	1.047842			
48686									0.182300	-0.064052	9.820524	0.000305	-0.002240	-0.003910	-0.033007	0.390102	1.060993			
48687									0.189333	-0.054493	9.827721	0.001590	-0.002549	-0.004233	-0.029817	0.396293	1.047646			
48688									0.186985	-0.064028	9.832500	0.002508	0.000988	-0.004225	-0.032987	0.387676	1.059053			
48689									0.184610	-0.047376	9.813356	-0.000354	-0.000641	-0.003587	-0.032069	0.396288	1.045505			
48690									0.184561	-0.056901	9.830106	-0.001007	-0.000326	-0.001983	-0.021277	0.387205	1.060075			
48691									0.191843	-0.061617	9.818148	0.000895	0.001938	-0.003581	-0.030050	0.391739	1.049578			
48692									0.175033	-0.054574	9.825304	0.004420	0.002287	-0.005504	-0.030392	0.389710	1.055386			
48693									0.198933	-0.063959	9.830126	-0.001334	0.001594	-0.005185	-0.030262	0.384759	1.049569			
48694									0.198948	-0.056816	9.820556	0.002181	0.001629	-0.003903	-0.030645	0.387582	1.059257			
48695									0.194142	-0.061607	9.830119	0.001203	0.002263	-0.001978	-0.025275	0.391451	1.048049			
48696									0.170331	-0.054599	9.815722	0.000279	0.000004	-0.003905	-0.021055	0.382155	1.052321			
48697									0.203757	-0.061549	9.820561	0.002536	-0.002215	-0.001989	-0.025436	0.389224	1.049984			
48698									0.179732	-0.042646	9.822924	0.000918	0.000331	-0.004547	-0.037741	0.385537	1.058641			
48699									0.177402	-0.054562	9.827702	0.001233	-0.000305	-0.001983	-0.032584	0.382427	1.047425			
48700									0.172666	-0.059349	9.827691	0.001531	0.002582	-0.004541	-0.021146	0.382254	1.054258			
48701									0.179750	-0.045026	9.822923	0.001231	0.000976	-0.004545	-0.042082	0.387754	1.052424			
48702									0.194156	-0.052083	9.818156	0.000574	0.002575	-0.004862	-0.032845	0.392329	1.059059			
48703									0.184650	-0.061659	9.822923	0.000592	0.000330	-0.003264	-0.032412	0.394259	1.051313			
48704									0.184543	-0.054521	9.830107	0.002810	0.001955	-0.002620	-0.033037	0.382923	1.057110			
48705									0.177474	-0.061701	9.825305	0.002503	0.001629	-0.004543	-0.036874	0.389396	1.043150			
48706									0.177366	-0.052182	9.830096	-0.001349	0.001915	-0.002939	-0.030766	0.380502	1.057312			
48707									0.186910	-0.049747	9.827720	-0.001634	-0.001294	-0.002306	-0.027688	0.389219	1.047842			
48708									0.189278	-0.047353	9.827725	0.002827	0.000032	-0.001342	-0.032825	0.389903	1.057119			
48709									0.191841	-0.054474	9.810971	0.003771	0.001006	-0.000057	-0.032412	0.394259	1.051313			
48710									0.184525	-0.054522	9.832501	-0.001962	0.000624	-0.005507	-0.035258	0.390097	1.058851			
48711									0.170208	-0.052223	9.830084	-0.000047	0.000962	-0.005185	-0.028172	0.382536	1.053645			
48712									0.167948	-0.064136	9.825287	0.000936	-0.001274	-0.004549	-0.026051	0.387493	1.061603			
48713									0.175135	-0.045047	9.801373	0.002189	0.000666	-0.002943	-0.025306	0.384273	1.044167			
48714									0.179824	-0.056927	9.825311	0.000600	0.000007	-0.004226	-0.035581	0.385642	1.062720			
48715									0.189331	-0.049732	9.822937	-0.000373	0.000642	-0.002943	-0.027668	0.386793	1.045902			
48716									0.182087	-0.054538	9.839677	-0.000034	-0.000320	-0.004868	-0.030412	0.392136	1.057326			
48717									0.194048	-0.042564	9.822948	0.000603	0.000968	-0.007111	-0.037217	0.387368	1.048959			
48718									0.179825	-0.061689	9.830096	0.001242	0.000013	-0.004867	-0.028192	0.384962	1.055585			
48719									0.196547	-0.063973	9.830122	0.001865	0.000344	-0.001982	-0.032502	0.394358	1.053250			
48720									0.187052	-0.056883	9.815749	0.001224	-0.000302	0.000261	-0.021135	0.391859	1.060081			
48721									0.194230	-0.061603	9.818152	0.003155	0.000354	-0.003906	-0.037126	0.387268	1.047022			
48722									0.201301	-0.063946	9.832524	0.003807	-0.000602	-0.004229	-0.032936	0.392428	1.060996			
48723									0.186892	-0.049748	9.830113	0.001878	0.000340	-0.004547	-0.030372	0.387284	1.053446			
48724									0.179807	-0.059309	9.830097	0.001905	-0.002226	-0.004232	-0.028535	0.382933	1.061393			
48725									0.182121	-0.052156	9.832498	0.001906	-0.001586	-0.005834	-0.032714	0.387378	1.053242			
48726									0.189355	-0.068777	9.839682	-0.002303	0.002226	-0.005182	-0.028353	0.382735	1.057519			
48727									0.182173	-0.052153	9.825317	0.001559	0.000657	-0.005508	-0.028030	0.387190	1.053651			
48728									0.189439	-0.059250	9.818145	-0.001022	0.001279	-0.002620	-0.030987	0.385553	1.065066			
48729									0.182246	-0.059293	9.822920	0.003133	0.000998	-0.000698	-0.020611	0.393689	1.050398			
48730									0.179875	-0.054544	9.815738	0.001211	0.002580	-0.004220	-0.030483	0.389809	1.057323			
48731									0.191792	-0.064000	9.827721	-0.000371	0.000642	-0.003584	-0.030262	0.384759	1.049569			
48732									0.172629	-0.052208	9.825301	0.001233	0.000334	-0.003584	-0.028303	0.387488	1.059462			
48733									0.184669	-0.066420	9.825314	0.000302	-0.001922	-0.004235	-0.027778	0.389318	1.049779			
48734									0.196630	-0.052066	9.806193	0.001551	0.000339	-0.002628	-0.030715	0.385255	1.059255			
48735									0.179610	-0.045032	9.842072	0.000906	0.000650	-0.002947	-0.030211	0.389511	1.051512			
48736									0.177561	-0.061697	9.813337	0.000616	-0.000318	-0.006795	-0.035127	0.385145	1.053034			
48737									0.162997	-0.052266	9.837253	0.000249	0.001287	-0.001021	-0.029868	0.391540	1.045703			
48738									0.170260	-0.052221	9.822904	0.000248	0.002888	-0.004544	-0.028555	0.385359	1.063333			
48739									0.186946	-0.054507	9.827717	0.001848	0.001625	-0.001342	-0.030140	0.391838	1.051515			
48740									0.196527	-0.056832	9.825339	0.001571	-0.001266	-0.003273	-0.025910	0.392146	1.061609			
48741									0.198914	-0.059199	9.827735	0.000270	0.000646	-0.003588	-0.029919	0.386788	1.043761			
48742									0.206163	-0.068677	9.825349	0.000579	0.002572	-0.006149	-0.035076	0.389898	1.054977			
48743									0.182086	-0.052157	9.837285	0.003800	-0.000925	-0.001990	-0.027577	0.386693	1.043965			
48744									0.179844	-0.064069	9.830094	0.002174	0.001306	-0.001983	-0.033097	0.390201	1.062930			
48745									0.167874	-0.052235	9.822900	0.004089	0.001964	-0.002303	-0.025527	0.389323	1.051921			
48746									0.184597	-0.059281	9.827711	0.001232	0.000653	-0.004229	-0.033168	0.387874	1.062927			
48747									0.187018	-0.059265	9.822928	-0.000695	0.000958	-0.003266	-0.023256	0.386902	1.052122			
48748									0.186997	-0.049743	9.815752	-0.000368	0.000639	-0.003909	-0.028373	0.385161	1.059459			
48749									0.189317	-0.059255	9.834900	0.003485	0.000031	-0.005514	-0.034734	0.391927	1.049169			
48750									0.184647	-0.052136	9.813353	0.000568	0.002573	-0.003584	-0.030372	0.387284	1.053446			
48751									0.170279	-0.056982	9.825295	-0.000035	-0.000323	-0.004551	-0.030282	0.387185	1.051509			
48752									0.172577	-0.054591	9.834874	-0.000377	0.001279	-0.003906	-0.028303	0.387488	1.059462			
48753									0.189298	-0.054495	9.832509	0.000250	0.002569	-0.004225	-0.029797	0.393867	1.045706			
48754									0.187017	-0.056885	9.820536	0.000862	0.004182	-0.001977	-0.032754	0.392230	1.057122			
48755									0.201300	-0.059185	9.827739	-0.000069	0.001608	-0.001983	-0.027818	0.394170	1.053659			
48756									0.196597	-0.056829	9.815764	-0.001341	0.001594	-0.003586	-0.026011	0.382641	1.057723			
48757									0.179750	-0.045026	9.822923	0.002172	0.001946	-0.002944	-0.041921	0.389982	1.050490			
48758									0.172718	-0.056966	9.818118	0.000586	0.001288	-0.004227	-0.019127	0.377705	1.058331			
48759									0.186910	-0.049747	9.827720	-0.000700	0.000318	-0.000703	-0.032604	0.384853	1.049365			
48760									0.184685	-0.061658	9.818136	0.003483	-0.000608	-0.003271	-0.037651	0.385438	1.056704			
48761									0.201300	-0.059185	9.827739	0.002132	0.003877	0.000907	-0.035006	0.392225	1.054980			
48762									0.187019	-0.061646	9.825320	-0.000670	-0.000648	-0.004873	-0.023709	0.387399	1.061808			
48763									0.177488	-0.052177	9.813341	0.003820	-0.000929	-0.005836	-0.027617	0.391545	1.047845			
48764									0.179982	-0.059301	9.806161	-0.000993	-0.000650	-0.003910	-0.026031	0.385067	1.059663			
48765									0.191737	-0.056860	9.827724	0.002193	0.000663	-0.004230	-0.025073	0.388827	1.042235			
48766									0.179859	-0.059306	9.822916	0.000887	0.002256	-0.002622	-0.033239	0.385548	1.062924			
48767									0.189384	-0.052110	9.818148	0.001227	0.000336	-0.001986	-0.029848	0.389114	1.043764			
48768									0.187089	-0.064024	9.818139	0.003525	-0.003176	-0.005841	-0.028263	0.382636	1.055582			
48769									0.194247	-0.061602	9.815758	0.000921	0.000010	-0.004231	-0.025830	0.382442	1.053849			
48770									0.179967	-0.066444	9.815732	-0.001315	-0.000653	-0.003590	-0.030463	0.387383	1.055383			
48771									0.175122	-0.059332	9.818121	0.000917	0.001289	-0.006792	-0.030050	0.391739	1.049578			
48772									0.182350	-0.059288	9.808559	0.002807	0.002595	-0.003263	-0.021438	0.384978	1.062009			
48773									0.177328	-0.042661	9.825314	0.001228	0.000974	-0.003908	-0.032604	0.384853	1.049365			
48774									0.201248	-0.061568	9.837312	-0.000379	0.000962	-0.002626	-0.028322	0.389914	1.061402			
48775									0.189406	-0.066394	9.830109	0.001219	0.001616	-0.003906	-0.027597	0.389119	1.045905			
48776									0.177401	-0.052181	9.825309	-0.000024	-0.001604	-0.003593	-0.030625	0.385156	1.057317			
48777									0.165508	-0.061771	9.830072	0.004434	0.000361	-0.003909	-0.030120	0.389412	1.049575			
48778									0.179808	-0.061689	9.832489	0.001893	-0.000626	-0.005514	-0.030846	0.390206	1.065071			
48779									0.194192	-0.054462	9.815762	0.003145	0.000994	-0.003268	-0.027546	0.393872	1.047848			
48780									0.177450	-0.042656	9.808559	0.003825	-0.002209	-0.003595	-0.031078	0.385652	1.067003			
48781									0.187194	-0.064020	9.803777	-0.001631	-0.000656	-0.004231	-0.032372	0.389407	1.047433			
48782									0.194103	-0.049704	9.822945	0.004118	-0.000920	-0.001349	-0.021166	0.384680	1.056198			
48783									0.179948	-0.064064	9.815733	0.001208	0.001619	-0.001341	-0.032694	0.384952	1.051302			
48784									0.167787	-0.052238	9.834868	0.002847	-0.001257	-0.002631	-0.035329	0.387770	1.058849			
48785									0.179930	-0.061684	9.815734	0.001556	0.000656	-0.004870	-0.037126	0.387268	1.047022			
48786									0.182192	-0.056914	9.827708	0.002189	0.000343	-0.002627	-0.030645	0.387582	1.059257			
48787									0.191808	-0.061618	9.822935	0.001544	0.001939	-0.005509	-0.030140	0.391838	1.051515			
48788									0.194106	-0.056847	9.830122	0.003815	-0.001567	-0.003594	-0.030171	0.384659	1.047632			
48789									0.186891	-0.044986	9.825329	-0.000722	0.002243	-0.000699	-0.034966	0.387373	1.051100			
48790									0.179859	-0.056926	9.820524	0.003444	0.003560	-0.005185	-0.028303	0.387488	1.059462			
48791									0.175051	-0.054574	9.822911	0.000871	0.003219	-0.001658	-0.023125	0.381951	1.046305			
48792									0.182336	-0.068812	9.820522	0.001869	-0.000300	-0.001025	-0.021186	0.387106	1.058138			
48793									0.182048	-0.042636	9.832503	0.002191	0.000022	-0.002308	-0.030050	0.391739	1.049578			
48794									0.199106	-0.059190	9.801406	-0.000089	0.003853	-0.002939	-0.030322	0.392037	1.055389			
48795									0.184634	-0.066421	9.830101	-0.001004	-0.000009	-0.003589	-0.027617	0.391545	1.047845			
48796									0.187035	-0.056884	9.818142	-0.000358	-0.000003	-0.004551	-0.028322	0.389914	1.061402			
48797									0.163102	-0.052262	9.822892	-0.001604	-0.002585	-0.005517	-0.025346	0.389125	1.048047			
48798									0.184525	-0.052141	9.830108	0.002539	-0.001901	-0.003595	-0.035076	0.389898	1.054977			
48799									0.196476	-0.061595	9.837304	0.001590	-0.001911	-0.006159	-0.032624	0.387279	1.051305			
48800									0.191736	-0.054479	9.825332	-0.000042	-0.000319	-0.002949	-0.021327	0.382453	1.058132			
48801									0.191739	-0.064002	9.834901	0.002183	0.001945	-0.005509	-0.029727	0.396194	1.045709			
48802									0.172772	-0.061725	9.815722	0.000587	0.000648	-0.002946	-0.026011	0.382641	1.057723			
48803									0.175036	-0.061717	9.832481	-0.001302	-0.000978	-0.005835	-0.027405	0.398525	1.047853			
48804									0.177421	-0.059322	9.830093	0.001546	0.000017	-0.001345	-0.023800	0.387498	1.063745			
48805									0.189334	-0.059255	9.832506	0.001239	-0.000308	-0.003270	-0.029939	0.389213	1.045701			
48806									0.191807	-0.056857	9.818150	-0.002610	0.000619	-0.003587	-0.030463	0.387383	1.055383			
48807									0.191736	-0.054479	9.825332	0.002193	0.000663	-0.004230	-0.032442	0.387080	1.047430			
48808									0.184502	-0.037857	9.818148	0.002169	0.003228	-0.005186	-0.028444	0.382834	1.059456			
48809									0.182177	-0.061676	9.834887	0.001558	0.000654	-0.005512	-0.034674	0.384649	1.043349			
48810									0.189349	-0.052112	9.822936	0.003798	0.000037	-0.003591	-0.035127	0.385145	1.053034			
48811									0.182208	-0.052152	9.820530	0.002487	0.002271	-0.002623	-0.030242	0.382333	1.047629			
48812									0.189511	-0.066390	9.815748	0.000306	-0.001282	-0.006477	-0.030605	0.382730	1.055378			
48813									0.194126	-0.063988	9.834905	0.003804	-0.001565	-0.001350	-0.029777	0.391441	1.043766			
48814									0.186947	-0.056888	9.830110	0.001249	0.000010	-0.006155	-0.030554	0.387482	1.057320			
48815									0.182155	-0.049773	9.825318	0.002168	0.002588	-0.003584	-0.034643	0.391828	1.047232			
48816									0.186965	-0.059268	9.830109	0.002191	0.000663	-0.003909	-0.025961	0.387394	1.059666			
48817									0.175066	-0.047431	9.813340	0.001554	0.000656	-0.004229	-0.034734	0.391927	1.049169			
48818									0.184684	-0.059277	9.815743	0.001558	0.000336	-0.004550	-0.021095	0.387007	1.056201			
48819									0.187145	-0.073545	9.820527	0.000269	0.000646	-0.003587	-0.025578	0.384570	1.049978			
48820									0.206286	-0.071053	9.810986	0.000238	0.002575	-0.001339	-0.021237	0.382353	1.056195			
48821									0.184667	-0.061658	9.820529	0.000928	-0.001913	-0.001029	-0.025558	0.382145	1.048038			
48822									0.196581	-0.061591	9.822943	-0.001678	0.002874	-0.003262	-0.032896	0.387577	1.057116			
48823									0.175070	-0.059334	9.825302	0.000595	0.000326	-0.003909	-0.027345	0.391248	1.042034			
48824									0.179949	-0.066445	9.818125	0.004423	0.001005	-0.002946	-0.032896	0.387577	1.057116			
48825									0.191824	-0.054475	9.813364	0.001569	-0.000626	-0.004233	-0.030262	0.384759	1.049569			
48826									0.189313	-0.047352	9.822938	0.001884	-0.001262	-0.001670	-0.018985	0.382359	1.058337			
48827									0.174994	-0.042672	9.818129	0.000912	0.001290	-0.005510	-0.027708	0.391645	1.049782			
48828									0.179736	-0.054550	9.834886	0.000270	0.000644	-0.003908	-0.021327	0.382453	1.058132			
48829									0.172576	-0.049830	9.830090	-0.001651	-0.000654	-0.000384	-0.030262	0.384759	1.049569			
48830									0.174979	-0.049815	9.827700	-0.000414	0.003527	-0.001337	-0.028303	0.387488	1.059462			
48831									0.187213	-0.068780	9.806169	0.000266	0.001287	-0.004227	-0.032553	0.389605	1.051307			
48832									0.191756	-0.061620	9.830115	0.000574	0.002252	-0.004226	-0.028141	0.389715	1.057528			
48833									0.186909	-0.047366	9.825327	0.001561	-0.001267	-0.002310	-0.027728	0.394071	1.051722			
48834									0.194176	-0.059224	9.822940	0.001241	0.000011	-0.005513	-0.019167	0.382557	1.062211			
48835									0.174998	-0.054576	9.830091	0.001553	-0.000627	-0.002308	-0.037237	0.389794	1.050899			
48836									0.167911	-0.059375	9.825290	0.002496	0.001625	-0.004226	-0.023891	0.387597	1.065682			
48837									0.182352	-0.064050	9.813344	-0.000034	-0.001603	-0.002630	-0.020843	0.389135	1.052330			
48838									0.189439	-0.059250	9.818145	0.001548	-0.000304	-0.001987	-0.023477	0.391953	1.059876			
48839									0.191735	-0.052098	9.822940	0.000259	0.000646	-0.002305	-0.032392	0.391833	1.049373			
48840									0.191649	-0.054483	9.837300	0.001246	-0.000312	-0.006155	-0.031098	0.388078	1.068943			
48841									0.174889	-0.040296	9.830098	0.000242	0.002568	-0.003583	-0.028121	0.387289	1.055588			
48842									0.177367	-0.054563	9.832489	0.001526	0.000979	-0.000701	-0.023619	0.387299	1.059871			
48843									0.184489	-0.049762	9.832503	0.001866	0.000338	-0.003268	-0.032664	0.392131	1.055184			
48844									0.191701	-0.054480	9.830119	-0.000358	-0.001285	-0.002630	-0.021529	0.385077	1.063946			
48845									0.182300	-0.064052	9.820524	-0.000045	0.000319	-0.005190	-0.027869	0.389417	1.051716			
48846									0.191681	-0.047339	9.825335	-0.001349	0.002553	-0.005507	-0.030645	0.387582	1.059257			
48847									0.194016	-0.049708	9.834912	-0.001028	0.001915	-0.004226	-0.028030	0.387190	1.053651			
48848									0.186965	-0.059268	9.830109	-0.000372	0.000637	-0.004549	-0.030786	0.382928	1.059252			
48849									0.170242	-0.049841	9.822905	-0.001353	0.000952	-0.000700	-0.030282	0.387185	1.051509			
48850									0.182195	-0.064056	9.834885	0.001177	0.005143	-0.004859	-0.021458	0.387404	1.063949			
48851									0.191700	-0.052100	9.827727	0.002478	0.002271	-0.001982	-0.030050	0.391739	1.049578			
48852									0.191827	-0.063998	9.822934	0.002169	0.001306	-0.001983	-0.028373	0.385161	1.059459			
48853									0.189491	-0.056867	9.808572	0.000895	0.001294	-0.002945	-0.032190	0.389208	1.043559			
48854									0.191828	-0.066379	9.825326	-0.000074	0.001926	-0.002943	-0.028373	0.385161	1.059459			
48855									0.182264	-0.061673	9.822919	0.001240	-0.000310	-0.004551	-0.020843	0.389135	1.052330			
48856									0.191808	-0.061618	9.822935	0.002804	0.002594	-0.003904	-0.035278	0.392523	1.060791			
48857									0.177561	-0.059316	9.810944	-0.000078	0.002246	-0.002621	-0.027869	0.389417	1.051716			
48858									0.179659	-0.035507	9.825321	0.001493	0.004187	-0.001336	-0.023800	0.387498	1.063745			
48859									0.177473	-0.056939	9.820520	0.001541	0.000656	-0.002946	-0.032553	0.389605	1.051307			
48860									0.175069	-0.056954	9.822909	0.003129	0.002274	-0.004225	-0.028373	0.385161	1.059459			
48861									0.182119	-0.047394	9.827713	0.002549	-0.002865	-0.004558	-0.025476	0.394076	1.053863			
48862									0.189495	-0.068771	9.820534	0.000899	0.000972	-0.003266	-0.019187	0.384983	1.064151			
48863									0.175107	-0.066475	9.827692	0.001836	0.002904	-0.003261	-0.018198	0.395922	1.050605			
48864									0.184596	-0.056900	9.825319	-0.002626	0.000939	-0.002303	-0.028303	0.387488	1.059462			
48865									0.191881	-0.071138	9.822930	0.001225	-0.000306	-0.001345	-0.034683	0.396680	1.051112			
48866									0.186838	-0.044988	9.832509	0.002811	0.001631	-0.003266	-0.033077	0.387775	1.060990			
48867									0.203774	-0.061548	9.818168	0.001554	-0.000624	-0.002309	-0.032553	0.389605	1.051307			
48868									0.184631	-0.056898	9.820532	0.001516	0.003223	-0.003902	-0.021347	0.384879	1.060072			
48869									0.163210	-0.064161	9.820492	0.001875	0.000335	-0.005190	-0.028030	0.387190	1.053651			
48870									0.184741	-0.071178	9.820525	0.002834	-0.000294	-0.003269	-0.033128	0.383022	1.059047			
48871									0.182266	-0.068815	9.830096	-0.001020	0.000633	-0.002945	-0.020883	0.393987	1.056209			
48872									0.177397	-0.040277	9.813347	0.001850	0.002262	-0.004225	-0.026051	0.387493	1.061603			
48873									0.189211	-0.056879	9.846869	-0.000380	0.000638	-0.002946	-0.025819	0.392047	1.059672			
48874									0.196509	-0.056832	9.827732	-0.000700	0.001277	-0.004227	-0.044969	0.388444	1.063842			
48875									0.184545	-0.061664	9.837284	0.001583	-0.002553	-0.004236	-0.030322	0.392037	1.055389			
48876									0.194162	-0.068748	9.834903	0.002177	0.001304	-0.003907	-0.023749	0.392251	1.065687			
48877									0.182209	-0.054533	9.822922	-0.001969	-0.000338	-0.002627	-0.023276	0.389328	1.054062			
48878									0.179773	-0.061691	9.837276	-0.001313	-0.000657	-0.005513	-0.037801	0.392815	1.064461			
48879									0.189477	-0.068772	9.822927	0.002485	0.001630	-0.001982	-0.025708	0.389522	1.055795			
48880									0.194234	-0.073507	9.830114	0.000254	0.001287	-0.003265	-0.033148	0.385448	1.060987			
48881									0.191810	-0.066380	9.827720	0.002191	0.000021	-0.003589	-0.030171	0.384659	1.047632			
48882									0.177436	-0.052179	9.820522	-0.000669	-0.000651	-0.006154	-0.023528	0.387200	1.057934			
48883									0.184637	-0.075944	9.839671	0.002174	0.001944	-0.004867	-0.021095	0.387007	1.056201			
48884									0.182282	-0.064053	9.822918	0.001271	-0.002877	-0.004877	-0.030684	0.392434	1.063137			
48885									0.199002	-0.061576	9.818160	0.000585	0.000969	-0.004549	-0.032573	0.392031	1.053247			
48886									0.177419	-0.054561	9.825308	0.000881	0.002255	-0.002622	-0.028322	0.389914	1.061402			
48887									0.186965	-0.059268	9.830109	0.001826	0.002267	0.000584	-0.034895	0.389699	1.051103			
48888									0.175035	-0.059336	9.830089	0.002500	0.000985	-0.003587	-0.037691	0.390290	1.060584			
48889									0.175178	-0.068853	9.820510	-0.000403	0.003203	-0.004221	-0.030211	0.389511	1.051512			
48890									0.179736	-0.054550	9.834886	-0.000385	0.000959	-0.002624	-0.030715	0.385255	1.059255			
48891									0.187019	-0.064027	9.827713	0.001527	0.001300	-0.001662	-0.013978	0.386625	1.054877			
48892									0.203510	-0.054417	9.846894	0.001533	0.001939	-0.004548	-0.016360	0.391571	1.058552			
48893									0.179700	-0.052171	9.837281	0.004405	0.001646	-0.001983	-0.021024	0.389334	1.056204			
48894									0.187073	-0.068786	9.825317	0.002143	0.003551	-0.001978	-0.025799	0.389621	1.057732			
48895									0.177419	-0.054561	9.825308	0.001219	0.000974	-0.003266	-0.027980	0.391942	1.055593			
48896									0.189512	-0.068770	9.818140	-0.000385	0.001281	-0.003265	-0.035601	0.388068	1.064660			
48897									0.189476	-0.066391	9.820535	0.001537	0.001299	-0.003586	-0.032432	0.396685	1.053253			
48898									0.179680	-0.045029	9.832497	-0.000062	0.000642	-0.002305	-0.023548	0.389626	1.059873			
48899									0.189262	-0.052115	9.834903	-0.000384	0.001280	-0.003586	-0.030372	0.387284	1.053446			
48900									0.186856	-0.044988	9.830116	0.003181	-0.000937	-0.007440	-0.030574	0.389908	1.059260			
48901									0.175033	-0.054574	9.825304	0.000240	0.001928	-0.001660	-0.034966	0.387373	1.051100			
48902									0.177311	-0.045042	9.830100	0.002483	0.003229	-0.005506	-0.021469	0.377799	1.058127			
48903									0.163137	-0.054641	9.820497	0.000928	-0.001917	-0.002310	-0.025618	0.389422	1.053858			
48904									0.191757	-0.064001	9.832508	0.001891	-0.000946	-0.005515	-0.033026	0.392528	1.062933			
48905									0.206129	-0.071059	9.832528	0.003135	0.000995	-0.002626	-0.022862	0.393684	1.048257			
48906									0.194301	-0.066362	9.813362	0.001537	0.000980	-0.002625	-0.042516	0.385825	1.060170			
48907									0.186838	-0.044988	9.832509	0.000265	0.000004	-0.002307	-0.028050	0.389616	1.055590			
48908									0.196528	-0.059212	9.827731	0.002178	0.001305	-0.003907	-0.025961	0.387394	1.059666			
48909									0.170168	-0.037940	9.820517	0.001227	0.000331	-0.003268	-0.034481	0.394055	1.045297			
48910									0.189442	-0.068773	9.827714	-0.001677	0.000951	-0.000059	-0.035218	0.385245	1.054972			
48911									0.191739	-0.064002	9.834901	0.001537	0.001938	-0.005508	-0.029959	0.391639	1.047641			
48912									0.189225	-0.047355	9.834906	0.000255	0.001286	-0.003266	-0.025890	0.389720	1.059669			
48913									0.182264	-0.061673	9.822919	-0.000043	-0.000322	-0.003909	-0.022933	0.391357	1.048254			
48914									0.184596	-0.056900	9.825319	-0.001030	0.002235	-0.004545	-0.021478	0.389830	1.065889			
48915									0.191772	-0.056858	9.822937	0.000890	0.001934	-0.003585	-0.034784	0.387174	1.047226			
48916									0.184563	-0.064044	9.837283	0.003168	-0.000935	-0.004874	-0.028283	0.385062	1.057522			
48917									0.196704	-0.063966	9.808580	0.003150	-0.000928	-0.000706	-0.025456	0.391650	1.051924			
48918									0.203792	-0.061548	9.815774	0.000909	-0.000308	-0.001987	-0.033369	0.390499	1.068741			
48919									0.203828	-0.066308	9.815772	-0.000056	0.000324	-0.002626	-0.023559	0.380022	1.054051			
48920									0.186963	-0.052125	9.822932	0.003150	-0.000290	-0.002308	-0.018844	0.387012	1.058342			
48921									0.179843	-0.061688	9.827702	0.002533	-0.000942	-0.005835	-0.028010	0.384764	1.051711			
48922									0.163083	-0.047501	9.820501	0.001511	0.002902	-0.001979	-0.025567	0.394175	1.055801			
48923									0.186982	-0.056886	9.825323	0.001201	0.002258	-0.002622	-0.039115	0.398996	1.046831			
48924									0.191861	-0.061616	9.815754	0.000234	0.004492	-0.006464	-0.026122	0.385166	1.061600			
48925									0.186891	-0.044986	9.825329	0.002507	0.000345	-0.003268	-0.027778	0.389318	1.049779			
48926									0.191736	-0.054479	9.825332	0.002209	-0.001582	-0.003273	-0.030684	0.392434	1.063137			
48927									0.179828	-0.068831	9.837273	0.001181	0.004181	-0.003258	-0.029979	0.394065	1.049580			
48928									0.182245	-0.056912	9.820528	0.001538	0.001297	-0.003906	-0.026102	0.382740	1.059661			
48929									0.179736	-0.054550	9.834886	0.001208	0.001616	-0.002623	-0.030211	0.389511	1.051512			
48930									0.179859	-0.059306	9.822916	0.002812	0.001631	-0.003265	-0.028484	0.387686	1.063336			
48931									0.189331	-0.049732	9.822937	-0.000355	-0.001926	-0.001670	-0.029959	0.391639	1.047641			
48932									0.191581	-0.045112	9.822878	0.000903	0.000651	-0.003267	-0.030897	0.385454	1.063129			
48933									0.210832	-0.056900	9.813329	0.000218	0.000646	-0.002947	-0.020914	0.386808	1.052327			
48934									0.174808	-0.042830	9.830032	0.002782	0.000345	-0.003268	-0.030503	0.392235	1.059263			
48935									0.194221	-0.071276	9.815688	-0.001072	0.001914	-0.004225	-0.030443	0.384957	1.053443			
48936									0.179763	-0.068984	9.832420	0.001169	0.000973	-0.002304	-0.033168	0.387874	1.062927			
48937									0.184532	-0.057052	9.820466	0.001492	0.000016	-0.000383	-0.032210	0.391634	1.045499			
48938									0.193903	-0.061767	9.849202	-0.001390	0.001269	-0.003586	-0.040013	0.387958	1.058440			
48939									0.177301	-0.049954	9.822852	0.001501	0.001293	-0.005510	-0.032482	0.391932	1.051310			
48940									0.191673	-0.057012	9.822872	-0.001974	-0.002908	-0.004877	-0.028535	0.382933	1.061393			
48941									0.179688	-0.052321	9.825248	0.000206	0.001285	-0.002303	-0.032694	0.384952	1.051302			
48942									0.179688	-0.052321	9.825248	0.000543	0.000644	-0.004228	-0.023871	0.385171	1.063742			
48943									0.179848	-0.059457	9.810883	0.000540	0.001606	-0.005829	-0.027990	0.382338	1.049771			
48944									0.174828	-0.049971	9.834815	0.002175	-0.001269	-0.006477	-0.033329	0.385647	1.064861			
48945									0.184621	-0.064191	9.815676	0.001803	0.000982	-0.000701	-0.025598	0.386996	1.051918			
48946									0.179564	-0.047565	9.837218	0.002149	-0.000303	-0.003270	-0.030877	0.383028	1.061189			
48947									0.186864	-0.052279	9.822866	0.005009	0.001010	-0.001985	-0.025396	0.384372	1.046104			
48948									0.182149	-0.066589	9.830032	0.001186	0.000329	-0.004229	-0.019096	0.384884	1.062214			
48949									0.162985	-0.052417	9.825220	0.000215	0.001281	-0.004226	-0.025578	0.384570	1.049978			
48950									0.174919	-0.061872	9.834809	0.001532	-0.002874	-0.001992	-0.028212	0.387388	1.057525			
48951									0.196483	-0.066506	9.827662	-0.000428	0.001279	-0.003586	-0.034966	0.387373	1.051100			
48952									0.198691	-0.054596	9.839640	-0.001061	0.001271	-0.005189	-0.026000	0.392245	1.063546			
48953									0.189233	-0.054647	9.827656	0.000536	0.000326	-0.001985	-0.032533	0.387179	1.049368			
48954									0.167775	-0.054770	9.825227	0.000848	0.002249	-0.005186	-0.021407	0.392157	1.065892			
48955									0.184532	-0.059433	9.822859	0.001174	0.000973	-0.003266	-0.034714	0.389501	1.047229			
48956									0.186919	-0.061800	9.825255	0.002490	-0.000943	-0.006156	-0.035530	0.390394	1.064663			
48957									0.194060	-0.059379	9.825268	0.002156	0.000018	-0.005513	-0.025578	0.384570	1.049978			
48958									0.186992	-0.071320	9.825250	0.004407	-0.001245	-0.004875	-0.011889	0.384403	1.058953			
48959									0.177337	-0.052333	9.820457	0.003078	0.001633	-0.001341	-0.032714	0.387378	1.053242			
48960									0.182038	-0.047548	9.825254	-0.001700	0.001264	-0.005188	-0.038195	0.386034	1.068327			
48961									0.194132	-0.066519	9.822871	-0.001087	0.001917	-0.001019	-0.030100	0.386986	1.047635			
48962									0.179759	-0.054699	9.818066	0.003417	0.001633	-0.005189	-0.021206	0.389532	1.060078			
48963									0.179670	-0.049941	9.825249	0.004055	0.001319	-0.004228	-0.037065	0.401626	1.054787			
48964									0.184421	-0.040392	9.818081	0.000206	0.001286	-0.001983	-0.030806	0.385354	1.061192			
48965									0.189391	-0.057021	9.808507	0.000216	0.000005	-0.001024	-0.037126	0.387268	1.047022			
48966									0.182180	-0.057065	9.815675	0.000889	-0.002238	-0.002632	-0.018844	0.387012	1.058342			
48967									0.177252	-0.059479	9.839602	0.004084	-0.001249	-0.004234	-0.030030	0.389313	1.047638			
48968									0.187008	-0.064177	9.815680	0.002474	-0.000299	-0.004231	-0.026011	0.382641	1.057723			
48969									0.186810	-0.047520	9.825262	-0.000729	-0.000969	-0.001988	-0.029959	0.391639	1.047641			
48970									0.193933	-0.045100	9.827669	0.000543	0.000645	-0.004229	-0.021226	0.391958	1.062018			
48971									0.186760	-0.054665	9.839620	0.001802	0.002261	-0.003905	-0.041992	0.387655	1.050487			
48972									0.196499	-0.061744	9.820484	-0.000414	-0.000004	-0.003268	-0.033057	0.385349	1.059050			
48973									0.196428	-0.059366	9.827666	0.000871	0.000647	-0.006153	-0.025386	0.393977	1.051926			
48974									0.174971	-0.061869	9.827629	-0.002012	-0.000662	-0.002306	-0.023548	0.389626	1.059873			
48975									0.162965	-0.045275	9.820437	-0.000730	-0.000331	-0.003268	-0.027688	0.389219	1.047842			
48976									0.189198	-0.054649	9.832443	0.001453	0.004504	-0.003258	-0.030645	0.387582	1.059257			
48977									0.186813	-0.057043	9.834832	-0.000432	0.001278	-0.002945	-0.025547	0.391749	1.053861			
48978									0.184441	-0.047533	9.822865	0.002485	-0.001262	-0.004234	-0.033057	0.385349	1.059050			
48979									0.196269	-0.054612	9.844423	0.000863	0.001288	-0.006152	-0.032714	0.387378	1.053242			
48980									0.203711	-0.064082	9.815708	-0.000717	-0.001609	-0.002951	-0.030534	0.385056	1.055380			
48981									0.167598	-0.047635	9.841985	-0.000089	-0.000326	-0.003910	-0.027597	0.389119	1.045905			
48982									0.179833	-0.068981	9.822846	0.000541	0.001285	-0.005509	-0.023780	0.385072	1.061805			
48983									0.193989	-0.057001	9.832450	0.000858	0.001289	-0.004869	-0.018824	0.384586	1.056402			
48984									0.189217	-0.057029	9.832442	0.002467	-0.000298	-0.002949	-0.035419	0.387869	1.060786			
48985									0.189198	-0.054649	9.832443	0.001518	-0.001270	-0.002951	-0.037186	0.394546	1.052841			
48986									0.177355	-0.054713	9.820456	0.002463	0.000662	-0.004229	-0.028444	0.382834	1.059456			
48987									0.179582	-0.049945	9.837217	0.000868	0.000645	-0.005511	-0.027889	0.391843	1.053656			
48988									0.186904	-0.068943	9.834826	0.001207	-0.001595	-0.004233	-0.028161	0.392141	1.059467			
48989									0.179830	-0.059458	9.813277	0.001814	0.000339	-0.001344	-0.037166	0.392120	1.050901			
48990									0.186953	-0.057037	9.815683	0.000203	0.002247	-0.003904	-0.025779	0.387195	1.055792			
48991									0.182093	-0.057068	9.827643	0.003087	0.001632	-0.003265	-0.039508	0.392214	1.050697			
48992									0.194096	-0.064139	9.825266	0.000831	0.003215	-0.003902	-0.023548	0.389626	1.059873			
48993									0.191604	-0.061777	9.837231	0.000226	0.000001	-0.003589	-0.028000	0.394368	1.057533			
48994									0.194129	-0.056996	9.813302	-0.000104	0.001282	-0.004227	-0.033360	0.378468	1.060979			
48995									0.182129	-0.059448	9.825248	0.000190	0.003209	-0.003581	-0.032674	0.382526	1.049362			
48996									0.193971	-0.054621	9.832451	0.002159	-0.000623	-0.004553	-0.028645	0.385459	1.065270			
48997									0.184549	-0.057052	9.818073	0.001184	-0.000309	-0.001986	-0.023004	0.389031	1.048251			
48998									0.189379	-0.073687	9.827647	0.001503	-0.001586	0.001217	-0.030534	0.385056	1.055380			
48999									0.191671	-0.052251	9.818087	0.001175	0.000973	-0.003266	-0.034966	0.387373	1.051100			
49000									0.181916	-0.049933	9.844401	0.000555	-0.001600	-0.001669	-0.042264	0.387953	1.056298			
49001									0.189233	-0.054647	9.827656	0.001503	0.000654	-0.004229	-0.032502	0.394358	1.053250			
49002									0.179582	-0.049945	9.837217	-0.000391	-0.001611	-0.004554	-0.019116	0.387310	1.064154			
49003									0.194077	-0.059379	9.822875	0.001487	0.002578	-0.005507	-0.030534	0.385056	1.055380			
49004									0.189180	-0.052269	9.832444	0.000562	-0.001600	-0.002952	-0.028353	0.382735	1.057519			
49005									0.184423	-0.045153	9.822866	-0.000414	-0.000645	-0.001667	-0.023276	0.389328	1.054062			
49006									0.186831	-0.057042	9.832438	0.000557	-0.000639	-0.004232	-0.028393	0.387587	1.061399			
49007									0.186957	-0.068941	9.827645	0.000858	0.001289	-0.004868	-0.025961	0.387394	1.059666			
49008									0.179798	-0.068982	9.827633	-0.000069	-0.001608	-0.004874	-0.025980	0.389819	1.061606			
49009									0.175021	-0.054725	9.813271	0.002134	0.000661	-0.002305	-0.027869	0.389417	1.051716			
49010									0.182039	-0.052309	9.830039	0.000551	-0.000638	-0.002949	-0.035601	0.388068	1.064660			
49011									0.201185	-0.064101	9.834852	-0.001058	0.000631	-0.004229	-0.025507	0.386897	1.049981			
49012									0.196499	-0.061744	9.820484	0.000860	0.001290	-0.005189	-0.025941	0.384968	1.057726			
49013									0.184535	-0.066575	9.830036	0.002740	0.003235	-0.001658	-0.018592	0.389140	1.054471			
49014									0.177321	-0.057096	9.827635	0.001178	0.001291	-0.004868	-0.018612	0.391566	1.056411			
49015									0.177447	-0.068994	9.822842	-0.000145	0.003528	-0.001335	-0.030191	0.387085	1.049572			
49016									0.167704	-0.050011	9.830016	0.000543	0.000323	-0.003587	-0.030605	0.382730	1.055378			
49017									0.194024	-0.057000	9.827663	0.001188	0.000330	-0.004550	-0.025235	0.386599	1.044170			
49018									0.189234	-0.057028	9.830049	0.001196	0.000008	-0.005513	-0.030645	0.387582	1.059257			
49019									0.167773	-0.047627	9.818050	0.000542	0.000323	-0.003267	-0.032482	0.391932	1.051310			
49020									0.182147	-0.061828	9.825247	0.001783	0.002265	0.000264	-0.025941	0.384968	1.057726			
49021									0.186988	-0.059417	9.813289	0.002463	0.000344	-0.003268	-0.032564	0.380001	1.045485			
49022									0.172513	-0.054744	9.830022	0.002801	-0.001580	-0.002631	-0.030483	0.389809	1.057323			
49023									0.191712	-0.068914	9.830047	0.000874	-0.000634	-0.003590	-0.020642	0.386510	1.046515			
49024									0.174916	-0.052349	9.825240	-0.001677	-0.001302	-0.003911	-0.026051	0.387493	1.061603			
49025									0.182056	-0.049928	9.825253	0.000226	0.000641	-0.004870	-0.020812	0.396314	1.056212			
49026									0.191656	-0.059394	9.827658	0.002480	-0.000621	-0.004873	-0.025961	0.387394	1.059666			
49027									0.182167	-0.068969	9.830031	0.000851	0.001290	-0.003585	-0.025255	0.389025	1.046109			
49028									0.177462	-0.061851	9.813272	0.002797	-0.000617	-0.003911	-0.026102	0.382740	1.059661			
49029									0.194114	-0.066519	9.825265	-0.000428	0.001279	-0.003586	-0.034844	0.394452	1.053046			
49030									0.203676	-0.064083	9.820495	0.001480	0.002261	-0.003264	-0.028121	0.387289	1.055588			
49031									0.196357	-0.054608	9.832455	0.003759	-0.000928	-0.003913	-0.028223	0.377784	1.051702			
49032									0.182279	-0.054530	9.813348	0.004055	0.001320	-0.003907	-0.032916	0.390002	1.059056			
49033									0.175001	-0.061718	9.837268	0.000252	0.000644	-0.004870	-0.032553	0.389605	1.051307			
49034									0.187056	-0.068787	9.827710	0.002481	0.000669	-0.002306	-0.028121	0.387289	1.055588			
49035									0.184544	-0.056902	9.832499	0.001858	0.000338	-0.005193	-0.023094	0.389130	1.050188			
49036									0.182297	-0.056910	9.813347	0.004100	0.000040	-0.004553	-0.030625	0.385156	1.057317			
49037									0.177368	-0.056944	9.834881	0.002152	0.000666	-0.000383	-0.028050	0.389616	1.055590			
49038									0.189330	-0.047351	9.820544	0.002478	0.001310	-0.002947	-0.028303	0.387488	1.059462			
49039									0.187054	-0.061645	9.820533	0.000876	0.001935	-0.004227	-0.027869	0.389417	1.051716			
49040									0.182157	-0.054535	9.830103	0.002485	0.000347	-0.002307	-0.023669	0.382547	1.057928			
49041									0.179862	-0.066449	9.830093	0.001547	-0.000627	-0.004874	-0.028121	0.387289	1.055588			
49042									0.175175	-0.061711	9.813333	0.002498	0.000025	-0.004231	-0.030483	0.389809	1.057323			
49043									0.191737	-0.056860	9.827724	-0.000106	0.002891	-0.001981	-0.030282	0.387185	1.051509			
49044									0.196368	-0.052077	9.842096	0.001206	0.000976	-0.004230	-0.028322	0.389914	1.061402			
49045									0.184562	-0.059282	9.832498	0.003762	0.001000	-0.003268	-0.025578	0.384570	1.049978			
49046									0.184577	-0.052139	9.822928	0.001842	0.001943	-0.005510	-0.032896	0.387577	1.057116			
49047									0.179876	-0.056925	9.818130	-0.000374	-0.000644	-0.004232	-0.023185	0.389229	1.052125			
49048									0.179789	-0.056929	9.830098	0.001848	0.000340	-0.002948	-0.025941	0.384968	1.057726			
49049									0.189245	-0.054497	9.839689	0.001503	0.001943	-0.001663	-0.029959	0.391639	1.047641			
49050									0.194140	-0.054464	9.822942	0.002143	0.002911	-0.003905	-0.028172	0.382536	1.053645			
49051									0.179753	-0.054549	9.832493	0.001864	-0.000943	-0.003272	-0.032341	0.396585	1.051316			
49052									0.184755	-0.061655	9.808562	0.001509	0.001943	-0.002624	-0.032805	0.387477	1.055179			
49053									0.184562	-0.059282	9.832498	0.003138	0.000350	-0.005193	-0.032674	0.382526	1.049362			
49054									0.191933	-0.068755	9.813357	-0.003287	0.001898	-0.003584	-0.035470	0.383116	1.058843			
49055									0.191718	-0.052099	9.825333	-0.001013	-0.000009	-0.006155	-0.030030	0.389313	1.047638			
49056									0.182083	-0.042634	9.827715	-0.000418	0.001925	-0.001342	-0.035419	0.387869	1.060786			
49057									0.191934	-0.071136	9.815749	0.000876	0.001936	-0.004227	-0.037166	0.392120	1.050901			
49058									0.187071	-0.061644	9.818140	0.000543	0.002575	-0.002943	-0.023528	0.387200	1.057934			
49059									0.179805	-0.052166	9.822920	-0.001692	0.002552	-0.004225	-0.027778	0.389318	1.049779			
49060									0.182211	-0.061675	9.830100	0.000268	-0.001279	-0.003272	-0.026011	0.382641	1.057723			
49061									0.184616	-0.064041	9.830102	0.000565	0.000970	-0.003908	-0.022984	0.386605	1.046311			
49062									0.175125	-0.068855	9.827691	0.001545	-0.000307	-0.005193	-0.030715	0.385255	1.059255			
49063									0.175087	-0.059334	9.822908	0.000234	0.002568	-0.005507	-0.032785	0.385051	1.053239			
49064									0.182120	-0.049775	9.830105	0.000859	0.003218	-0.003904	-0.026031	0.385067	1.059663			
49065									0.189387	-0.059253	9.825326	0.001847	0.000342	-0.002628	-0.027657	0.396397	1.051725			
